subNum group counterBalancing date time trial block list task animacy alphabetical word preTimeFix preTimeWord RT resp acc 
1 1 1 20200122 145718 1 1 1 alphabetical inanimate alphabetical LOOP 516.559160 299.765673 1073.840471 1 1
1 1 1 20200122 145718 2 1 1 alphabetical animate alphabetical EARL 516.538754 316.513896 0.201469 1 1
1 1 1 20200122 145718 3 1 1 alphabetical animate non-alphabetical NURSE 516.582522 316.484969 1.007016 1 0
1 1 1 20200122 145718 4 1 1 alphabetical animate non-alphabetical SARDINE 516.560087 316.542959 0.244136 0 1
1 1 1 20200122 145718 5 1 1 alphabetical animate non-alphabetical JAWBONE 516.555718 316.564642 0.306940 0 1
1 1 1 20200122 145718 6 1 1 alphabetical animate non-alphabetical GOOSE 516.637692 316.548327 0.227131 1 0
1 1 1 20200122 145718 7 1 1 alphabetical animate alphabetical MATRON 516.436185 316.615307 38.782981 0 0
1 1 1 20200122 145718 8 1 1 alphabetical inanimate non-alphabetical GRANITE 516.387566 316.679307 0.368117 0 1
1 1 1 20200122 145718 9 1 1 alphabetical animate non-alphabetical SEED 516.393131 316.620872 0.220020 0 1
1 1 1 20200122 145718 10 1 1 alphabetical inanimate non-alphabetical NYLON 516.566883 316.379410 0.526423 0 1
1 1 1 20200122 145718 11 1 1 alphabetical inanimate non-alphabetical SPACE 516.380764 316.686727 0.176426 0 1
1 1 1 20200122 145718 12 1 1 alphabetical inanimate non-alphabetical SPATULA 516.384474 316.808890 0.166223 0 1
1 1 1 20200122 145718 13 1 1 alphabetical animate non-alphabetical HOOF 516.384165 316.612833 0.245063 1 0
1 1 1 20200122 145718 14 1 1 alphabetical animate alphabetical CUCUMBER 516.612954 316.414344 0.354207 1 1
1 1 1 20200122 145718 15 1 1 alphabetical animate alphabetical HAZELNUT 516.599081 316.459134 0.283055 1 1
1 1 1 20200122 145718 16 1 1 alphabetical animate alphabetical BISHOP 516.533807 316.633239 0.186319 1 1
1 1 1 20200122 145718 17 1 1 alphabetical inanimate non-alphabetical ZINC 516.604833 316.363720 4.335586 1 0
1 1 1 20200122 145718 18 1 1 alphabetical inanimate non-alphabetical TOMB 516.360786 316.735809 0.279073 1 0
1 1 1 20200122 145718 19 1 1 alphabetical animate alphabetical IVORY 516.422503 316.564601 16.143972 1 1
1 1 1 20200122 145718 20 1 1 alphabetical inanimate alphabetical PLIERS 516.635986 316.389766 29.710594 1 1
1 1 1 20200122 145718 21 1 1 alphabetical animate non-alphabetical RADISH 516.691179 316.482360 32.988349 1 0
1 1 1 20200122 145718 22 1 1 alphabetical animate alphabetical CHICK 516.662039 316.344235 22.863745 1 1
1 1 1 20200122 145718 23 1 1 alphabetical animate alphabetical COYOTE 516.508115 316.362477 12.626830 1 1
1 1 1 20200122 145718 24 1 1 alphabetical animate non-alphabetical SILK 516.304397 316.543577 0.137469 1 0
1 1 1 20200122 145718 25 1 1 alphabetical animate non-alphabetical BACTERIA 516.654812 316.402476 0.229180 1 0
1 1 1 20200122 145718 26 1 1 alphabetical animate alphabetical BLISTER 516.626561 316.517606 0.227131 1 1
1 1 1 20200122 145718 27 1 1 alphabetical animate non-alphabetical PECTORAL 516.683759 316.410012 0.208580 1 0
1 1 1 20200122 145718 28 1 1 alphabetical inanimate non-alphabetical HATCH 516.632126 316.492563 0.162513 1 0
1 1 1 20200122 145718 29 1 1 alphabetical animate non-alphabetical HERD 516.407044 316.630148 0.212909 1 0
1 1 1 20200122 145718 30 1 1 alphabetical animate non-alphabetical TERRIER 516.439817 316.500911 58.065853 0 1
1 1 1 20200122 145718 31 1 1 alphabetical animate alphabetical AVIATOR 516.596492 316.525105 29.632290 0 0
1 1 1 20200122 145718 32 1 1 alphabetical inanimate alphabetical CHARITY 516.289057 316.640350 0.142416 0 0
1 1 1 20200122 145718 33 1 1 alphabetical inanimate alphabetical PULLEY 516.588841 316.512659 0.178590 0 0
1 1 1 20200122 145718 34 1 1 alphabetical inanimate alphabetical CABLE 516.644918 316.518442 0.194552 0 0
1 1 1 20200122 145718 35 1 1 alphabetical inanimate non-alphabetical FIGURINE 516.506909 316.705278 0.181063 0 1
1 1 1 20200122 145718 36 1 1 alphabetical inanimate alphabetical CUBE 516.664699 316.369092 0.568047 0 0
1 1 1 20200122 145718 37 1 1 alphabetical inanimate non-alphabetical FLOOD 516.530097 316.549761 39.296836 0 1
1 1 1 20200122 145718 38 1 1 alphabetical inanimate alphabetical FLASK 516.495160 316.648389 24.489639 0 0
1 1 1 20200122 145718 39 1 1 alphabetical animate non-alphabetical WOMB 516.602754 316.433819 59.845178 0 1
1 1 1 20200122 145718 40 1 1 alphabetical inanimate alphabetical ALCOHOL 516.448783 316.786283 54.615107 0 0
1 1 1 20200122 145718 41 1 1 alphabetical animate alphabetical DINGO 516.509033 316.505548 42.620510 0 0
1 1 1 20200122 145718 42 1 1 alphabetical inanimate alphabetical ALARM 516.457131 316.637568 208.874990 0 0
1 1 1 20200122 145718 43 1 1 alphabetical inanimate non-alphabetical HOSPICE 516.518039 316.574804 5.956526 1 0
1 1 1 20200122 145718 44 1 1 alphabetical animate non-alphabetical REPTILE 516.410754 316.767114 23.630431 1 0
1 1 1 20200122 145718 45 1 1 alphabetical animate alphabetical GRANDSON 516.327626 316.524099 0.221257 0 0
1 1 1 20200122 145718 46 1 1 alphabetical inanimate alphabetical AERIAL 516.670145 316.369520 41.656809 0 0
1 1 1 20200122 145718 47 1 1 alphabetical animate alphabetical EMPEROR 516.406116 316.563674 43.176104 0 0
1 1 1 20200122 145718 48 1 1 alphabetical inanimate non-alphabetical ARENA 516.487121 316.746474 36.829898 0 1
1 1 1 20200122 145718 49 1 1 alphabetical inanimate alphabetical LARDER 516.583585 316.512969 0.211054 0 0
1 1 1 20200122 145718 50 1 1 alphabetical animate alphabetical AGNOSTIC 516.695195 316.522247 34.227233 1 1
1 1 1 20200122 145718 51 1 1 alphabetical animate alphabetical ACTRESS 516.583894 316.448350 0.211054 1 1
1 1 1 20200122 145718 52 1 1 alphabetical inanimate non-alphabetical SHAWL 516.526696 316.624273 26.779727 1 0
1 1 1 20200122 145718 53 1 1 alphabetical inanimate alphabetical BULLET 516.629653 316.395481 38.229860 1 1
1 1 1 20200122 145718 54 1 1 alphabetical inanimate alphabetical CHALK 516.607392 316.432891 12.551622 1 1
1 1 1 20200122 145718 55 1 1 alphabetical inanimate non-alphabetical PIANO 516.519894 316.627674 0.161276 0 1
1 1 1 20200122 145718 56 1 1 alphabetical inanimate alphabetical BANGLE 516.516493 316.615925 62.228020 0 0
1 1 1 20200122 145718 57 1 1 alphabetical animate non-alphabetical RHUBARB 516.517730 316.585317 0.171479 1 0
1 1 1 20200122 145718 58 1 1 alphabetical inanimate non-alphabetical PLUG 516.501738 316.518843 144.938950 1 0
1 1 1 20200122 145718 59 1 1 alphabetical animate non-alphabetical PLUM 516.660571 316.530283 135.528780 0 1
1 1 1 20200122 145718 60 1 1 alphabetical animate alphabetical PARROT 516.630580 316.572022 0.244445 0 0
1 1 1 20200122 145718 61 1 1 alphabetical inanimate non-alphabetical LADLE 516.532289 316.387751 41.772432 1 0
1 1 1 20200122 145718 62 1 1 alphabetical inanimate non-alphabetical TOWER 516.423431 316.681780 137.679738 0 1
1 1 1 20200122 145718 63 1 1 alphabetical inanimate non-alphabetical ENCLAVE 516.496088 316.406496 182.353505 0 1
1 1 1 20200122 145718 64 1 1 alphabetical animate non-alphabetical MOOSE 516.565034 316.616384 0.246300 0 1
1 1 1 20200122 145718 65 1 1 alphabetical inanimate alphabetical DRILL 516.386947 316.672505 6.458942 1 1
1 1 1 20200122 145718 66 1 1 alphabetical inanimate alphabetical BRICK 516.462387 300.005287 300.981249 0 0
1 1 1 20200122 145718 67 1 1 alphabetical animate alphabetical KIDNEY 516.415779 316.636973 93.602880 0 0
1 1 1 20200122 145718 68 1 1 alphabetical inanimate non-alphabetical LOCK 516.429074 316.530901 12.766501 0 1
1 1 1 20200122 145718 69 1 1 alphabetical inanimate alphabetical COMPUTER 516.503817 316.683279 0.198996 0 0
1 1 1 20200122 145718 70 1 1 alphabetical animate alphabetical RABBIT 516.496899 316.522244 233.841189 0 0
1 1 1 20200122 145718 71 1 1 alphabetical animate non-alphabetical WOLF 516.504269 316.512826 30.017616 0 1
1 1 1 20200122 145718 72 1 1 alphabetical inanimate alphabetical BOOTH 516.320287 316.522553 0.187556 1 1
1 1 1 20200122 145718 73 2 3 living inanimate alphabetical COUPON 516.586677 300.017963 486.543953 0 1
1 1 1 20200122 145718 74 2 3 living inanimate alphabetical DENTURE 516.449211 316.550379 9.112006 0 1
1 1 1 20200122 145718 75 2 3 living animate non-alphabetical MOUSE 516.447431 316.548833 0.222184 0 0
1 1 1 20200122 145718 76 2 3 living animate alphabetical HAWK 516.525459 316.530592 3.808351 0 0
1 1 1 20200122 145718 77 2 3 living animate non-alphabetical KNEE 516.586677 316.473085 10.910809 0 0
1 1 1 20200122 145718 78 2 3 living animate alphabetical COBBLER 516.392706 316.607577 0.216928 0 0
1 1 1 20200122 145718 79 2 3 living animate alphabetical DAISY 516.374580 316.679925 78.941614 0 0
1 1 1 20200122 145718 80 2 3 living animate non-alphabetical PELICAN 516.572146 316.533993 107.834695 0 0
1 1 1 20200122 145718 81 2 3 living animate non-alphabetical STALLION 516.512437 316.459983 80.011258 0 0
1 1 1 20200122 145718 82 2 3 living animate alphabetical PLUMBER 516.470116 316.675597 149.316305 0 0
1 1 1 20200122 145718 83 2 3 living inanimate alphabetical METEOR 516.479083 316.573259 0.268561 1 0
1 1 1 20200122 145718 84 2 3 living animate non-alphabetical GLAND 516.505363 316.483287 55.385890 1 1
1 1 1 20200122 145718 85 2 3 living inanimate non-alphabetical SLIPPER 516.386638 316.739016 89.411650 1 0
1 1 1 20200122 145718 86 2 3 living inanimate non-alphabetical SYRINGE 517.519263 315.555958 22.733401 0 1
1 1 1 20200122 145718 87 2 3 living animate alphabetical KIPPER 516.464860 316.592118 54.356015 1 1
1 1 1 20200122 145718 88 2 3 living inanimate alphabetical DOCUMENT 516.536281 316.620872 4.279230 0 1
1 1 1 20200122 145718 89 2 3 living animate alphabetical LYNX 516.472624 316.491601 201.613579 0 0
1 1 1 20200122 145718 90 2 3 living animate non-alphabetical JUNGLE 516.395604 316.625201 135.743969 1 1
1 1 1 20200122 145718 91 2 3 living inanimate alphabetical ERASER 516.317691 316.726302 95.497528 0 1
1 1 1 20200122 145718 92 2 3 living inanimate alphabetical JAIL 516.532880 316.744544 36.120023 1 0
1 1 1 20200122 145718 93 2 3 living animate non-alphabetical NECK 516.672782 316.337202 26.026724 0 0
1 1 1 20200122 145718 94 2 3 living animate alphabetical FISH 516.525762 316.463816 0.562597 1 1
1 1 1 20200122 145718 95 2 3 living animate alphabetical OTTER 516.384165 316.722860 215.142047 1 1
1 1 1 20200122 145718 96 2 3 living inanimate alphabetical COIL 516.515875 316.620872 61.196599 0 1
1 1 1 20200122 145718 97 2 3 living animate alphabetical CRIMINAL 516.661111 316.461105 0.374378 1 1
1 1 1 20200122 145718 98 2 3 living inanimate alphabetical FROST 516.643603 316.454496 137.964145 1 0
1 1 1 20200122 145718 99 2 3 living inanimate alphabetical PASSPORT 516.437653 316.629220 32.615170 0 1
1 1 1 20200122 145718 100 2 3 living animate alphabetical COLT 516.350464 316.719809 100.928256 0 0
1 1 1 20200122 145718 101 2 3 living animate non-alphabetical TROUT 516.379527 316.520389 0.223112 1 1
1 1 1 20200122 145718 102 2 3 living inanimate non-alphabetical HARDWARE 516.693962 316.584114 0.132832 1 0
1 1 1 20200122 145718 103 2 3 living animate alphabetical EYEBALL 516.491450 316.513278 0.130049 1 1
1 1 1 20200122 145718 104 2 3 living animate non-alphabetical MACKEREL 516.530716 316.513587 60.596173 1 1
1 1 1 20200122 145718 105 2 3 living inanimate non-alphabetical VIOLIN 516.507527 316.500292 90.185216 1 0
1 1 1 20200122 145718 106 2 3 living animate alphabetical AUNT 516.487087 316.471229 0.150764 0 0
1 1 1 20200122 145718 107 2 3 living inanimate alphabetical POKER 516.600821 316.505395 0.229992 1 0
1 1 1 20200122 145718 108 2 3 living inanimate alphabetical CIRCUIT 516.662117 316.382804 121.741564 1 0
1 1 1 20200122 145718 109 2 3 living animate alphabetical FOAL 516.595643 316.602631 0.318648 1 1
1 1 1 20200122 145718 110 2 3 living animate alphabetical DOVE 516.577711 316.549761 206.360747 1 1
1 1 1 20200122 145718 111 2 3 living inanimate non-alphabetical EMERALD 516.724686 316.494611 155.910667 1 0
1 1 1 20200122 145718 112 2 3 living inanimate non-alphabetical PISTON 516.563370 299.786507 458.634490 1 0
1 1 1 20200122 145718 113 2 3 living animate non-alphabetical WAITER 515.974659 316.708988 7.336392 1 1
1 1 1 20200122 145718 114 2 3 living inanimate non-alphabetical GLOBE 516.572146 316.423616 44.917709 1 0
1 1 1 20200122 145718 115 2 3 living inanimate alphabetical GLIDER 516.602982 316.563677 0.448275 1 0
1 1 1 20200122 145718 116 2 3 living inanimate non-alphabetical PUZZLE 516.478464 299.884089 497.577004 1 0
1 1 1 20200122 145718 117 2 3 living inanimate non-alphabetical WHIP 516.460532 300.017963 557.324596 1 0
1 1 1 20200122 145718 118 2 3 living animate alphabetical ARTERY 516.458986 299.898311 1541.864722 1 1
1 1 1 20200122 145718 119 2 3 living inanimate alphabetical STAIRWAY 516.593788 299.692089 477.573745 1 0
1 1 1 20200122 145718 120 2 3 living inanimate alphabetical ATTIC 516.482793 299.858427 449.449283 1 0
1 1 1 20200122 145718 121 2 3 living inanimate non-alphabetical TUNIC 516.306252 316.730087 0.212291 1 0
1 1 1 20200122 145718 122 2 3 living inanimate non-alphabetical FURNACE 516.344899 299.918098 1349.338072 1 0
1 1 1 20200122 145718 123 2 3 living inanimate non-alphabetical WEDGE 516.619141 299.977461 1691.319037 1 0
1 1 1 20200122 145718 124 2 3 living inanimate alphabetical CARPET 516.558076 299.738003 317.693455 1 0
1 1 1 20200122 145718 125 2 3 living inanimate non-alphabetical MOLECULE 516.736938 299.874813 894.452689 1 0
1 1 1 20200122 145718 126 2 3 living inanimate alphabetical LEAFLET 516.409517 299.972514 463.739224 1 0
1 1 1 20200122 145718 127 2 3 living inanimate alphabetical RECEIPT 516.500722 299.824111 905.895714 1 0
1 1 1 20200122 145718 128 2 3 living animate alphabetical PUPPY 516.357773 300.081573 1164.598093 1 1
1 1 1 20200122 145718 129 2 3 living inanimate non-alphabetical LUGGAGE 516.481247 299.841113 475.790710 1 0
1 1 1 20200122 145718 130 2 3 living animate non-alphabetical ORCHID 516.621005 316.650500 118.234228 1 1
1 1 1 20200122 145718 131 2 3 living animate non-alphabetical PRIMATE 516.465635 316.475249 12.400433 1 1
1 1 1 20200122 145718 132 2 3 living inanimate non-alphabetical NITROGEN 516.547642 316.402979 1.980563 1 0
1 1 1 20200122 145718 133 2 3 living animate alphabetical HEART 516.659990 316.408738 0.267905 1 1
1 1 1 20200122 145718 134 2 3 living inanimate non-alphabetical GLOVE 516.554539 299.787608 375.058960 1 0
1 1 1 20200122 145718 135 2 3 living animate non-alphabetical SHRIMP 516.379527 316.761895 0.233933 1 1
1 1 1 20200122 145718 136 2 3 living animate non-alphabetical KNUCKLE 516.680164 316.556790 0.241238 1 1
1 1 1 20200122 145718 137 2 3 living animate non-alphabetical THIGH 516.616124 316.471773 162.054094 1 1
1 1 1 20200122 145718 138 2 3 living inanimate non-alphabetical GRAVE 516.598772 316.468409 158.940081 1 0
1 1 1 20200122 145718 139 2 3 living animate non-alphabetical MARE 516.383855 316.673123 234.119759 1 1
1 1 1 20200122 145718 140 2 3 living inanimate non-alphabetical TELEGRAM 516.423009 316.574495 0.205798 1 0
1 1 1 20200122 145718 141 2 3 living animate non-alphabetical OLIVE 516.644184 299.688997 547.554542 1 1
1 1 1 20200122 145718 142 2 3 living animate alphabetical POPPY 516.422204 299.984382 1146.408168 1 1
1 1 1 20200122 145718 143 2 3 living animate non-alphabetical MINK 516.580803 316.501529 49.675664 1 1
1 1 1 20200122 145718 144 2 3 living inanimate alphabetical BISCUIT 516.382001 316.663539 96.646746 1 0
1 1 1 20200122 145718 145 3 3 living animate alphabetical KITTEN 516.364996 300.039089 354.560104 1 1
1 1 1 20200122 145718 146 3 3 living animate non-alphabetical RETINA 516.664281 316.383114 79.135161 1 1
1 1 1 20200122 145718 147 3 3 living inanimate non-alphabetical RECIPE 516.326348 316.542959 0.130049 1 0
1 1 1 20200122 145718 148 3 3 living animate alphabetical CORK 516.506600 316.563983 0.184773 1 1
1 1 1 20200122 145718 149 3 3 living animate non-alphabetical SPINACH 516.407972 316.671887 58.143148 1 1
1 1 1 20200122 145718 150 3 3 living inanimate non-alphabetical SKEWER 516.353865 316.755365 40.472644 1 0
1 1 1 20200122 145718 151 3 3 living inanimate alphabetical GEYSER 516.437962 299.865847 598.881337 1 0
1 1 1 20200122 145718 152 3 3 living inanimate alphabetical DITCH 516.399005 299.829673 307.810703 1 0
1 1 1 20200122 145718 153 3 3 living inanimate alphabetical DIAGRAM 516.664855 299.882152 465.245588 1 0
1 1 1 20200122 145718 154 3 3 living animate non-alphabetical SCALP 516.626870 299.827509 553.369270 1 1
1 1 1 20200122 145718 155 3 3 living inanimate alphabetical BADGE 516.448165 316.619326 224.326825 1 0
1 1 1 20200122 145718 156 3 3 living animate non-alphabetical SHERIFF 516.595025 316.454843 153.164346 1 1
1 1 1 20200122 145718 157 3 3 living inanimate alphabetical FOLDER 516.422194 316.619945 124.952078 1 0
1 1 1 20200122 145718 158 3 3 living animate non-alphabetical SNAIL 516.625284 316.547637 152.800793 1 1
1 1 1 20200122 145718 159 3 3 living inanimate non-alphabetical PRAM 516.625318 316.675563 0.479737 1 0
1 1 1 20200122 145718 160 3 3 living inanimate alphabetical GUITAR 516.405182 316.694148 0.237643 1 0
1 1 1 20200122 145718 161 3 3 living inanimate alphabetical GRAVY 516.668256 299.766954 457.516115 1 0
1 1 1 20200122 145718 162 3 3 living inanimate alphabetical ATLAS 516.407353 316.580370 237.746119 1 0
1 1 1 20200122 145718 163 3 3 living animate non-alphabetical PICKLE 516.470426 316.614379 231.483081 1 1
1 1 1 20200122 145718 164 3 3 living animate non-alphabetical ROBIN 516.547411 316.548871 208.303318 1 1
1 1 1 20200122 145718 165 3 3 living animate alphabetical DAFFODIL 516.483982 316.570636 155.856724 1 1
1 1 1 20200122 145718 166 3 3 living animate alphabetical BURGLAR 516.494348 316.551694 226.792914 1 1
1 1 1 20200122 145718 167 3 3 living inanimate non-alphabetical REACTOR 516.556513 299.735547 454.507006 1 0
1 1 1 20200122 145718 168 3 3 living animate alphabetical FALCON 516.552976 316.534611 208.371028 1 1
1 1 1 20200122 145718 169 3 3 living animate non-alphabetical MAMMAL 516.535972 316.568057 115.920343 1 1
1 1 1 20200122 145718 170 3 3 living inanimate non-alphabetical NEEDLE 516.444455 316.617471 56.668673 1 0
1 1 1 20200122 145718 171 3 3 living animate non-alphabetical WIDOW 516.650483 316.558020 0.214339 1 1
1 1 1 20200122 145718 172 3 3 living animate non-alphabetical SPEAR 516.482470 316.566124 0.870509 1 1
1 1 1 20200122 145718 173 3 3 living animate non-alphabetical LEOPARD 516.511275 316.424197 0.268214 1 1
1 1 1 20200122 145718 174 3 3 living inanimate alphabetical FEAST 516.377672 316.558418 0.259286 1 0
1 1 1 20200122 145718 175 3 3 living animate alphabetical ASSASSIN 516.363219 316.626128 39.701242 1 1
1 1 1 20200122 145718 176 3 3 living inanimate alphabetical CAKE 516.496614 316.398355 165.891789 1 0
1 1 1 20200122 145718 177 3 3 living inanimate non-alphabetical PODIUM 516.557305 316.702920 161.591946 1 0
1 1 1 20200122 145718 178 3 3 living inanimate non-alphabetical PARCEL 516.404571 316.605722 93.933392 1 0
1 1 1 20200122 145718 179 3 3 living inanimate non-alphabetical LEASE 516.417556 316.615307 108.258889 1 0
1 1 1 20200122 145718 180 3 3 living inanimate non-alphabetical SILICON 516.613576 316.648620 232.355274 1 0
1 1 1 20200122 145718 181 3 3 living inanimate non-alphabetical SPINDLE 516.525459 300.074234 300.287143 1 0
1 1 1 20200122 145718 182 3 3 living animate non-alphabetical PANDA 516.465479 299.903258 603.179852 1 1
1 1 1 20200122 145718 183 3 3 living inanimate non-alphabetical STOOL 516.610484 316.711730 269.587529 1 0
1 1 1 20200122 145718 184 3 3 living inanimate non-alphabetical PIPE 516.399315 316.638186 126.059248 1 0
1 1 1 20200122 145718 185 3 3 living animate non-alphabetical POPE 516.501343 316.614492 171.422290 1 1
1 1 1 20200122 145718 186 3 3 living inanimate alphabetical JEEP 516.580840 299.810467 792.406907 1 0
1 1 1 20200122 145718 187 3 3 living inanimate non-alphabetical SATIN 516.475991 300.025693 636.418752 1 0
1 1 1 20200122 145718 188 3 3 living animate alphabetical RASPBERRY 516.424358 299.937268 344.115421 1 1
1 1 1 20200122 145718 189 3 3 living animate alphabetical CONVICT 516.549803 316.440084 135.036958 1 1
1 1 1 20200122 145718 190 3 3 living animate alphabetical NUCLEUS 516.317267 316.575423 0.313392 1 1
1 1 1 20200122 145718 191 3 3 living animate alphabetical OYSTER 516.628416 299.905548 1443.576120 1 1
1 1 1 20200122 145718 192 3 3 living inanimate alphabetical BRAKE 516.642329 316.379713 192.274245 1 0
1 1 1 20200122 145718 193 3 3 living animate alphabetical NANNY 516.442600 316.567075 142.704823 1 1
1 1 1 20200122 145718 194 3 3 living inanimate alphabetical BEDROOM 516.397891 316.538940 141.763064 1 0
1 1 1 20200122 145718 195 3 3 living animate non-alphabetical PEACOCK 516.419102 316.667867 27.153524 1 1
1 1 1 20200122 145718 196 3 3 living animate alphabetical PANTHER 516.323219 316.587481 0.185083 1 1
1 1 1 20200122 145718 197 3 3 living animate alphabetical GERM 516.244185 316.649935 31.798629 1 1
1 1 1 20200122 145718 198 3 3 living inanimate non-alphabetical SLEEVE 516.568744 316.496891 0.208271 1 0
1 1 1 20200122 145718 199 3 3 living inanimate alphabetical ANVIL 516.617904 316.546669 0.132213 1 0
1 1 1 20200122 145718 200 3 3 living inanimate non-alphabetical SMOG 516.462078 300.045171 658.642224 1 0
1 1 1 20200122 145718 201 3 3 living inanimate non-alphabetical PURSE 516.560706 316.583771 189.668176 1 0
1 1 1 20200122 145718 202 3 3 living inanimate non-alphabetical KEYBOARD 516.288479 316.723520 171.398483 1 0
1 1 1 20200122 145718 203 3 3 living animate non-alphabetical PEACH 516.492068 316.560582 33.129644 1 1
1 1 1 20200122 145718 204 3 3 living inanimate alphabetical CANDLE 516.526387 316.498437 0.133759 1 0
1 1 1 20200122 145718 205 3 3 living inanimate alphabetical LEDGER 516.602136 299.736301 541.971389 1 0
1 1 1 20200122 145718 206 3 3 living animate non-alphabetical NATIVE 516.583276 316.737738 0.150455 1 1
1 1 1 20200122 145718 207 3 3 living animate alphabetical INSULIN 516.448474 316.662825 266.714948 1 1
1 1 1 20200122 145718 208 3 3 living inanimate alphabetical GLACIER 516.401944 316.481123 13.838115 1 0
1 1 1 20200122 145718 209 3 3 living animate alphabetical BICEPS 516.524223 299.843586 427.334951 1 1
1 1 1 20200122 145718 210 3 3 living inanimate alphabetical BLAZER 516.378599 316.683945 0.169315 1 0
1 1 1 20200122 145718 211 3 3 living animate alphabetical PREACHER 516.601517 316.572640 239.339008 1 1
1 1 1 20200122 145718 212 3 3 living animate non-alphabetical SURGEON 516.511040 316.435871 0.447463 1 1
1 1 1 20200122 145718 213 3 3 living animate alphabetical DUCK 516.474445 316.541104 217.758010 1 1
1 1 1 20200122 145718 214 3 3 living inanimate non-alphabetical LATCH 516.330021 316.556563 141.655470 1 0
1 1 1 20200122 145718 215 3 3 living animate alphabetical GILLS 516.633054 316.392389 0.127266 1 1
1 1 1 20200122 145718 216 3 3 living animate non-alphabetical MONK 516.525459 299.822253 513.240318 1 1
1 1 1 20200122 145718 217 4 1 alphabetical inanimate non-alphabetical SCARF 516.647276 316.406920 261.980182 1 0
1 1 1 20200122 145718 218 4 1 alphabetical animate non-alphabetical MOTH 516.602346 316.422169 1.009452 1 0
1 1 1 20200122 145718 219 4 1 alphabetical animate alphabetical FUNGUS 516.435923 316.560582 189.236253 1 1
1 1 1 20200122 145718 220 4 1 alphabetical inanimate alphabetical CONCRETE 516.471044 316.544196 281.366319 1 1
1 1 1 20200122 145718 221 4 1 alphabetical inanimate alphabetical ESSAY 516.466097 299.900166 307.122161 1 1
1 1 1 20200122 145718 222 4 1 alphabetical animate alphabetical CORN 516.515335 316.472351 201.637304 1 1
1 1 1 20200122 145718 223 4 1 alphabetical animate alphabetical CROW 516.631817 316.576462 0.268870 1 1
1 1 1 20200122 145718 224 4 1 alphabetical animate alphabetical BLADDER 516.459295 316.501838 228.669552 1 1
1 1 1 20200122 145718 225 4 1 alphabetical inanimate non-alphabetical SLEDGE 516.639271 316.486964 135.972109 1 0
1 1 1 20200122 145718 226 4 1 alphabetical inanimate non-alphabetical TATTOO 516.475063 316.577427 222.214824 1 0
1 1 1 20200122 145718 227 4 1 alphabetical animate non-alphabetical RAVEN 516.586059 316.396717 59.856308 1 0
1 1 1 20200122 145718 228 4 1 alphabetical animate non-alphabetical PETAL 516.390474 316.473085 58.682974 1 0
1 1 1 20200122 145718 229 4 1 alphabetical inanimate alphabetical APRON 516.518375 299.778941 616.200277 1 1
1 1 1 20200122 145718 230 4 1 alphabetical inanimate alphabetical GRAPH 516.560087 299.871722 901.404886 1 1
1 1 1 20200122 145718 231 4 1 alphabetical inanimate alphabetical CABINET 516.594559 316.564602 125.590689 1 1
1 1 1 20200122 145718 232 4 1 alphabetical animate non-alphabetical LEAF 516.430858 299.811741 1243.651127 1 0
1 1 1 20200122 145718 233 4 1 alphabetical animate alphabetical FLESH 516.432706 316.618399 223.245008 1 1
1 1 1 20200122 145718 234 4 1 alphabetical inanimate non-alphabetical SACK 516.452802 299.876669 651.261814 1 0
1 1 1 20200122 145718 235 4 1 alphabetical inanimate non-alphabetical PIXIE 516.281290 316.623655 0.196213 1 0
1 1 1 20200122 145718 236 4 1 alphabetical inanimate non-alphabetical THRONE 516.604107 299.799877 525.227070 1 0
1 1 1 20200122 145718 237 4 1 alphabetical inanimate non-alphabetical GARAGE 516.486194 316.518225 229.079524 1 0
1 1 1 20200122 145718 238 4 1 alphabetical inanimate non-alphabetical OZONE 516.700451 316.454846 209.095437 1 0
1 1 1 20200122 145718 239 4 1 alphabetical inanimate non-alphabetical PARADE 516.428686 316.732795 22.412266 1 0
1 1 1 20200122 145718 240 4 1 alphabetical animate alphabetical PELVIS 516.340261 316.672814 93.170338 1 1
1 1 1 20200122 145718 241 4 1 alphabetical animate non-alphabetical HOSTAGE 516.343971 316.584698 58.988443 1 0
1 1 1 20200122 145718 242 4 1 alphabetical inanimate alphabetical FERRY 516.528242 316.429181 9.074905 1 1
1 1 1 20200122 145718 243 4 1 alphabetical inanimate non-alphabetical MASK 516.628107 299.754234 455.413963 1 0
1 1 1 20200122 145718 244 4 1 alphabetical animate alphabetical CHERRY 516.582039 316.463191 0.179208 1 1
1 1 1 20200122 145718 245 4 1 alphabetical animate alphabetical PEAR 516.408899 316.553780 0.172406 1 1
1 1 1 20200122 145718 246 4 1 alphabetical inanimate alphabetical EQUATOR 516.462387 299.838949 398.678392 1 1
1 1 1 20200122 145718 247 4 1 alphabetical inanimate alphabetical CRADLE 516.635218 316.587280 0.130667 1 1
1 1 1 20200122 145718 248 4 1 alphabetical animate alphabetical BEETLE 516.430232 316.373529 0.172406 1 1
1 1 1 20200122 145718 249 4 1 alphabetical animate alphabetical DONKEY 516.385401 299.890582 2129.321394 1 1
1 1 1 20200122 145718 250 4 1 alphabetical animate non-alphabetical NEURON 516.567892 316.552346 16.703202 1 0
1 1 1 20200122 145718 251 4 1 alphabetical animate non-alphabetical PYTHON 516.449055 316.372292 15.098329 1 0
1 1 1 20200122 145718 252 4 1 alphabetical animate alphabetical HADDOCK 516.492068 316.614070 116.365251 1 1
1 1 1 20200122 145718 253 4 1 alphabetical inanimate non-alphabetical PATIO 516.495544 316.408082 67.558499 1 0
1 1 1 20200122 145718 254 4 1 alphabetical inanimate alphabetical HELMET 516.508455 316.734103 178.118487 1 1
1 1 1 20200122 145718 255 4 1 alphabetical animate non-alphabetical MULE 516.490954 316.399069 213.692494 1 0
1 1 1 20200122 145718 256 4 1 alphabetical animate non-alphabetical PENGUIN 516.649440 316.563674 104.302944 1 0
1 1 1 20200122 145718 257 4 1 alphabetical inanimate alphabetical COPPER 516.481899 316.388026 6.508067 1 1
1 1 1 20200122 145718 258 4 1 alphabetical inanimate non-alphabetical STEEPLE 516.433943 316.766302 0.209199 1 0
1 1 1 20200122 145718 259 4 1 alphabetical inanimate alphabetical ROBOT 516.425595 316.696621 90.875921 1 1
1 1 1 20200122 145718 260 4 1 alphabetical animate non-alphabetical GAZELLE 516.485885 316.449162 0.242165 1 0
1 1 1 20200122 145718 261 4 1 alphabetical animate alphabetical APPLE 516.510001 316.512659 95.871635 1 1
1 1 1 20200122 145718 262 4 1 alphabetical inanimate non-alphabetical GRENADE 516.543083 300.030021 718.030242 1 0
1 1 1 20200122 145718 263 4 1 alphabetical animate non-alphabetical LAMB 516.342504 299.941287 604.803041 1 0
1 1 1 20200122 145718 264 4 1 alphabetical inanimate alphabetical CANVAS 516.413537 299.906659 577.906638 1 1
1 1 1 20200122 145718 265 4 1 alphabetical inanimate non-alphabetical PLAQUE 516.456822 316.607268 63.568929 1 0
1 1 1 20200122 145718 266 4 1 alphabetical inanimate non-alphabetical SNORKEL 516.664919 316.447093 85.841231 1 0
1 1 1 20200122 145718 267 4 1 alphabetical inanimate alphabetical IGNITION 516.265440 316.533374 0.168696 1 1
1 1 1 20200122 145718 268 4 1 alphabetical animate non-alphabetical VERMIN 516.625865 316.441626 74.285149 1 0
1 1 1 20200122 145718 269 4 1 alphabetical inanimate non-alphabetical VODKA 516.428068 299.997558 304.825890 1 0
1 1 1 20200122 145718 270 4 1 alphabetical animate non-alphabetical PEARL 516.723796 299.777578 363.298893 1 0
1 1 1 20200122 145718 271 4 1 alphabetical animate alphabetical CARROT 516.391585 299.952417 307.288809 1 1
1 1 1 20200122 145718 272 4 1 alphabetical animate non-alphabetical TIGER 516.587914 299.772166 437.037913 1 0
1 1 1 20200122 145718 273 4 1 alphabetical inanimate alphabetical BANJO 516.548957 316.601394 248.657043 1 1
1 1 1 20200122 145718 274 4 1 alphabetical animate non-alphabetical WALNUT 516.497943 299.951490 509.086190 1 0
1 1 1 20200122 145718 275 4 1 alphabetical animate alphabetical FIREMAN 516.675952 299.684128 376.011635 1 1
1 1 1 20200122 145718 276 4 1 alphabetical inanimate non-alphabetical ELLIPSE 516.523914 299.898311 335.644537 1 0
1 1 1 20200122 145718 277 4 1 alphabetical inanimate alphabetical BEAD 516.438580 299.829673 303.757676 1 1
1 1 1 20200122 145718 278 4 1 alphabetical animate alphabetical ACROBAT 516.582967 316.568621 74.176549 1 1
1 1 1 20200122 145718 279 4 1 alphabetical inanimate alphabetical KENNEL 516.532261 316.715828 24.598470 1 1
1 1 1 20200122 145718 280 4 1 alphabetical animate non-alphabetical TOURIST 516.433942 316.526573 70.378904 1 0
1 1 1 20200122 145718 281 4 1 alphabetical animate non-alphabetical POODLE 516.612030 316.499983 196.530711 1 0
1 1 1 20200122 145718 282 4 1 alphabetical animate alphabetical COWBOY 516.538136 316.444949 258.851909 1 1
1 1 1 20200122 145718 283 4 1 alphabetical animate non-alphabetical VINE 516.350155 299.973442 309.850356 1 0
1 1 1 20200122 145718 284 4 1 alphabetical inanimate non-alphabetical AGENDA 516.452184 316.648080 200.166965 1 0
1 1 1 20200122 145718 285 4 1 alphabetical inanimate alphabetical CORD 516.364068 316.662302 285.121298 1 1
1 1 1 20200122 145718 286 4 1 alphabetical inanimate alphabetical HOOP 516.399933 316.750958 120.707051 1 1
1 1 1 20200122 145718 287 4 1 alphabetical animate alphabetical ENVOY 516.355411 316.727848 262.421689 1 1
1 1 1 20200122 145718 288 4 1 alphabetical animate alphabetical PONY 516.615740 299.720533 394.907027 1 1
